" File: Users\dcaka\Documents\Spectra_data\20210
" SCOPE->  Wave:1115.08nm  Pix:2027  Val:511.990  Time:1000ms  Avg:1  Sm:1  Sg:0  Tc:off  SNAP  Xt:3  Ch:1  Xtrig
 500.00  6.8404E+002
 500.50  6.4492E+002
 501.00  6.0704E+002
 501.50  5.8603E+002
 502.00  5.8814E+002
 502.50  5.9334E+002
 503.00  6.0011E+002
 503.50  5.9426E+002
 504.00  5.7583E+002
 504.50  5.5696E+002
 505.00  5.4654E+002
 505.50  5.5339E+002
 506.00  5.7687E+002
 506.50  5.8907E+002
 507.00  5.7588E+002
 507.50  5.6627E+002
 508.00  5.6221E+002
 508.50  5.6226E+002
 509.00  5.8166E+002
 509.50  5.9228E+002
 510.00  5.7251E+002
 510.50  5.4203E+002
 511.00  5.1594E+002
 511.50  5.0044E+002
 512.00  5.0420E+002
 512.50  4.9951E+002
 513.00  4.8511E+002
 513.50  4.7121E+002
 514.00  4.6546E+002
 514.50  4.6959E+002
 515.00  4.8397E+002
 515.50  4.9478E+002
 516.00  4.9600E+002
 516.50  4.9169E+002
 517.00  4.9179E+002
 517.50  4.9489E+002
 518.00  4.9870E+002
 518.50  5.0562E+002
 519.00  5.1776E+002
 519.50  5.2961E+002
 520.00  5.3544E+002
 520.50  5.3514E+002
 521.00  5.2284E+002
 521.50  4.8892E+002
 522.00  4.4584E+002
 522.50  4.3141E+002
 523.00  4.3738E+002
 523.50  4.5745E+002
 524.00  4.9952E+002
 524.50  5.4183E+002
 525.00  5.6345E+002
 525.50  5.6355E+002
 526.00  5.4219E+002
 526.50  5.1578E+002
 527.00  5.0141E+002
 527.50  4.9053E+002
 528.00  4.8729E+002
 528.50  4.9244E+002
 529.00  4.7844E+002
 529.50  4.3694E+002
 530.00  3.9576E+002
 530.50  3.7469E+002
 531.00  3.6703E+002
 531.50  3.7572E+002
 532.00  4.0749E+002
 532.50  4.2637E+002
 533.00  4.2529E+002
 533.50  4.2274E+002
 534.00  4.2068E+002
 534.50  4.0772E+002
 535.00  3.9405E+002
 535.50  3.8843E+002
 536.00  3.8553E+002
 536.50  4.0111E+002
 537.00  4.2630E+002
 537.50  4.5302E+002
 538.00  4.7160E+002
 538.50  4.8396E+002
 539.00  4.9264E+002
 539.50  4.9919E+002
 540.00  4.9224E+002
 540.50  4.6453E+002
 541.00  4.1781E+002
 541.50  3.7149E+002
 542.00  3.3650E+002
 542.50  3.2729E+002
 543.00  3.4175E+002
 543.50  3.5024E+002
 544.00  3.4909E+002
 544.50  3.5109E+002
 545.00  3.4803E+002
 545.50  3.4200E+002
 546.00  3.4611E+002
 546.50  3.6133E+002
 547.00  3.7255E+002
 547.50  3.8432E+002
 548.00  4.1411E+002
 548.50  4.4327E+002
 549.00  4.5966E+002
 549.50  4.7416E+002
 550.00  4.8654E+002
 550.50  4.9026E+002
 551.00  4.8557E+002
 551.50  4.7839E+002
 552.00  4.6824E+002
 552.50  4.4450E+002
 553.00  4.3536E+002
 553.50  4.3431E+002
 554.00  4.1979E+002
 554.50  4.0270E+002
 555.00  3.7795E+002
 555.50  3.3776E+002
 556.00  2.9851E+002
 556.50  2.8630E+002
 557.00  3.0360E+002
 557.50  3.3248E+002
 558.00  3.6829E+002
 558.50  4.1389E+002
 559.00  4.5236E+002
 559.50  4.9567E+002
 560.00  5.3174E+002
 560.50  5.3762E+002
 561.00  5.2548E+002
 561.50  4.9989E+002
 562.00  4.7050E+002
 562.50  4.6827E+002
 563.00  4.7972E+002
 563.50  4.9357E+002
 564.00  5.0588E+002
 564.50  5.0221E+002
 565.00  4.9012E+002
 565.50  4.7597E+002
 566.00  4.5706E+002
 566.50  4.4183E+002
 567.00  4.3114E+002
 567.50  4.2563E+002
 568.00  4.3072E+002
 568.50  4.2807E+002
 569.00  4.2198E+002
 569.50  4.3153E+002
 570.00  4.4728E+002
 570.50  4.6052E+002
 571.00  4.7845E+002
 571.50  4.9278E+002
 572.00  4.9645E+002
 572.50  4.9332E+002
 573.00  4.8255E+002
 573.50  4.5755E+002
 574.00  4.2915E+002
 574.50  4.0585E+002
 575.00  3.9391E+002
 575.50  3.9490E+002
 576.00  4.1559E+002
 576.50  4.5293E+002
 577.00  4.8593E+002
 577.50  5.1366E+002
 578.00  5.3769E+002
 578.50  5.3988E+002
 579.00  5.2756E+002
 579.50  5.2134E+002
 580.00  5.0450E+002
 580.50  4.8866E+002
 581.00  4.7827E+002
 581.50  4.6576E+002
 582.00  4.5701E+002
 582.50  4.5890E+002
 583.00  4.6211E+002
 583.50  4.5304E+002
 584.00  4.3249E+002
 584.50  4.0744E+002
 585.00  3.8147E+002
 585.50  3.6463E+002
 586.00  3.6406E+002
 586.50  3.8805E+002
 587.00  4.1276E+002
 587.50  4.2680E+002
 588.00  4.3695E+002
 588.50  4.3915E+002
 589.00  4.3677E+002
 589.50  4.4246E+002
 590.00  4.5543E+002
 590.50  4.8093E+002
 591.00  5.0345E+002
 591.50  5.0766E+002
 592.00  5.0419E+002
 592.50  5.0075E+002
 593.00  4.9027E+002
 593.50  4.8172E+002
 594.00  4.7977E+002
 594.50  4.7421E+002
 595.00  4.6274E+002
 595.50  4.5583E+002
 596.00  4.6330E+002
 596.50  4.7022E+002
 597.00  4.7565E+002
 597.50  4.8434E+002
 598.00  4.8614E+002
 598.50  4.8395E+002
 599.00  4.8988E+002
 599.50  4.9942E+002
 600.00  5.1067E+002
 600.50  5.2702E+002
 601.00  5.3470E+002
 601.50  5.2820E+002
 602.00  5.0489E+002
 602.50  4.6472E+002
 603.00  4.2315E+002
 603.50  4.0069E+002
 604.00  3.9199E+002
 604.50  3.8794E+002
 605.00  3.9259E+002
 605.50  4.0298E+002
 606.00  4.1721E+002
 606.50  4.4066E+002
 607.00  4.5726E+002
 607.50  4.5194E+002
 608.00  4.2353E+002
 608.50  3.8853E+002
 609.00  3.6658E+002
 609.50  3.6925E+002
 610.00  3.8153E+002
 610.50  3.8966E+002
 611.00  3.8874E+002
 611.50  3.7158E+002
 612.00  3.5065E+002
 612.50  3.5108E+002
 613.00  3.6515E+002
 613.50  3.8737E+002
 614.00  4.2442E+002
 614.50  4.5381E+002
 615.00  4.6473E+002
 615.50  4.7612E+002
 616.00  4.9015E+002
 616.50  5.0550E+002
 617.00  5.2755E+002
 617.50  5.5054E+002
 618.00  5.5458E+002
 618.50  5.4469E+002
 619.00  5.3456E+002
 619.50  5.1915E+002
 620.00  5.0798E+002
 620.50  5.0376E+002
 621.00  4.9703E+002
 621.50  4.8735E+002
 622.00  4.7458E+002
 622.50  4.6076E+002
 623.00  4.4950E+002
 623.50  4.5738E+002
 624.00  4.9129E+002
 624.50  5.1887E+002
 625.00  5.3309E+002
 625.50  5.3729E+002
 626.00  5.1080E+002
 626.50  4.7593E+002
 627.00  4.7160E+002
 627.50  4.8770E+002
 628.00  5.1044E+002
 628.50  5.2303E+002
 629.00  5.2368E+002
 629.50  5.2583E+002
 630.00  5.2634E+002
 630.50  5.2866E+002
 631.00  5.3736E+002
 631.50  5.4219E+002
 632.00  5.3964E+002
 632.50  5.3373E+002
 633.00  5.2622E+002
 633.50  5.1211E+002
 634.00  4.9392E+002
 634.50  4.8243E+002
 635.00  4.7949E+002
 635.50  4.8426E+002
 636.00  5.0268E+002
 636.50  5.3140E+002
 637.00  5.5474E+002
 637.50  5.6366E+002
 638.00  5.7473E+002
 638.50  5.6974E+002
 639.00  5.4408E+002
 639.50  5.0772E+002
 640.00  4.7019E+002
 640.50  4.4197E+002
 641.00  4.4048E+002
 641.50  4.6650E+002
 642.00  4.9893E+002
 642.50  5.1956E+002
 643.00  5.2442E+002
 643.50  5.0792E+002
 644.00  4.8361E+002
 644.50  4.6626E+002
 645.00  4.6133E+002
 645.50  4.6317E+002
 646.00  4.7756E+002
 646.50  4.8901E+002
 647.00  4.9143E+002
 647.50  4.9537E+002
 648.00  4.9600E+002
 648.50  4.8446E+002
 649.00  4.8065E+002
 649.50  4.7844E+002
 650.00  4.6341E+002
 650.50  4.3785E+002
 651.00  4.3191E+002
 651.50  4.3089E+002
 652.00  4.3923E+002
 652.50  4.5845E+002
 653.00  4.7890E+002
 653.50  4.8943E+002
 654.00  4.8762E+002
 654.50  4.8007E+002
 655.00  4.7931E+002
 655.50  4.7822E+002
 656.00  4.7873E+002
 656.50  4.9022E+002
 657.00  5.0069E+002
 657.50  5.0998E+002
 658.00  5.0938E+002
 658.50  5.0505E+002
 659.00  4.9449E+002
 659.50  4.7335E+002
 660.00  4.5723E+002
 660.50  4.5499E+002
 661.00  4.5019E+002
 661.50  4.4312E+002
 662.00  4.4504E+002
 662.50  4.5155E+002
 663.00  4.6513E+002
 663.50  4.9338E+002
 664.00  5.2606E+002
 664.50  5.4754E+002
 665.00  5.5912E+002
 665.50  5.5945E+002
 666.00  5.5486E+002
 666.50  5.5088E+002
 667.00  5.4590E+002
 667.50  5.4181E+002
 668.00  5.4676E+002
 668.50  5.5593E+002
 669.00  5.6167E+002
 669.50  5.7081E+002
 670.00  5.8782E+002
 670.50  6.0920E+002
 671.00  6.1105E+002
 671.50  5.9942E+002
 672.00  5.7499E+002
 672.50  5.3388E+002
 673.00  4.8899E+002
 673.50  4.5964E+002
 674.00  4.4751E+002
 674.50  4.4591E+002
 675.00  4.4237E+002
 675.50  4.4668E+002
 676.00  4.5761E+002
 676.50  4.6315E+002
 677.00  4.7110E+002
 677.50  4.8553E+002
 678.00  4.8954E+002
 678.50  4.9123E+002
 679.00  4.9395E+002
 679.50  4.9632E+002
 680.00  4.9699E+002
 680.50  4.9995E+002
 681.00  5.0750E+002
 681.50  5.1196E+002
 682.00  5.0584E+002
 682.50  4.8561E+002
 683.00  4.6450E+002
 683.50  4.4381E+002
 684.00  4.2868E+002
 684.50  4.4167E+002
 685.00  4.8497E+002
 685.50  5.1774E+002
 686.00  5.3902E+002
 686.50  5.4837E+002
 687.00  5.4054E+002
 687.50  5.2719E+002
 688.00  5.0991E+002
 688.50  4.9323E+002
 689.00  4.8640E+002
 689.50  4.8013E+002
 690.00  4.7555E+002
 690.50  4.8731E+002
 691.00  5.1985E+002
 691.50  5.3767E+002
 692.00  5.3554E+002
 692.50  5.3811E+002
 693.00  5.3432E+002
 693.50  5.2604E+002
 694.00  5.3851E+002
 694.50  5.6140E+002
 695.00  5.8141E+002
 695.50  6.0057E+002
 696.00  6.1072E+002
 696.50  6.0289E+002
 697.00  5.8782E+002
 697.50  5.7416E+002
 698.00  5.5265E+002
 698.50  5.2958E+002
 699.00  5.3007E+002
 699.50  5.3976E+002
 700.00  5.5175E+002
 700.50  5.7204E+002
 701.00  5.9284E+002
 701.50  6.0700E+002
 702.00  6.1307E+002
 702.50  6.0320E+002
 703.00  5.8957E+002
 703.50  5.8320E+002
 704.00  5.7762E+002
 704.50  5.7793E+002
 705.00  5.8448E+002
 705.50  5.8539E+002
 706.00  5.7972E+002
 706.50  5.6678E+002
 707.00  5.4600E+002
 707.50  5.3097E+002
 708.00  5.2193E+002
 708.50  5.1018E+002
 709.00  5.0346E+002
 709.50  5.0946E+002
 710.00  5.1383E+002
 710.50  5.1789E+002
 711.00  5.2575E+002
 711.50  5.2924E+002
 712.00  5.3500E+002
 712.50  5.4350E+002
 713.00  5.3615E+002
 713.50  5.3055E+002
 714.00  5.3013E+002
 714.50  5.3307E+002
 715.00  5.4841E+002
 715.50  5.8075E+002
 716.00  6.1942E+002
 716.50  6.4624E+002
 717.00  6.6161E+002
 717.50  6.7041E+002
 718.00  6.5530E+002
 718.50  6.2403E+002
 719.00  6.0065E+002
 719.50  5.8130E+002
 720.00  5.6231E+002
 720.50  5.5217E+002
 721.00  5.4378E+002
 721.50  5.2462E+002
 722.00  5.0551E+002
 722.50  5.0055E+002
 723.00  5.0119E+002
 723.50  5.0523E+002
 724.00  5.1494E+002
 724.50  5.2105E+002
 725.00  5.2219E+002
 725.50  5.2009E+002
 726.00  5.1293E+002
 726.50  5.0886E+002
 727.00  5.0226E+002
 727.50  4.9442E+002
 728.00  5.0026E+002
 728.50  5.1621E+002
 729.00  5.3209E+002
 729.50  5.5699E+002
 730.00  5.8307E+002
 730.50  6.0452E+002
 731.00  6.2034E+002
 731.50  6.2805E+002
 732.00  6.2524E+002
 732.50  6.1127E+002
 733.00  5.9060E+002
 733.50  5.6951E+002
 734.00  5.4963E+002
 734.50  5.3801E+002
 735.00  5.3954E+002
 735.50  5.5500E+002
 736.00  5.7403E+002
 736.50  6.0341E+002
 737.00  6.3847E+002
 737.50  6.5861E+002
 738.00  6.5948E+002
 738.50  6.5319E+002
 739.00  6.3486E+002
 739.50  6.0814E+002
 740.00  5.7885E+002
 740.50  5.3153E+002
 741.00  4.8109E+002
 741.50  4.4688E+002
 742.00  4.3156E+002
 742.50  4.4877E+002
 743.00  4.8075E+002
 743.50  4.9511E+002
 744.00  5.1822E+002
 744.50  5.3435E+002
 745.00  5.3376E+002
 745.50  5.3351E+002
 746.00  5.3180E+002
 746.50  5.2623E+002
 747.00  5.2037E+002
 747.50  5.1602E+002
 748.00  5.2044E+002
 748.50  5.2039E+002
 749.00  5.1115E+002
 749.50  5.0373E+002
 750.00  4.9594E+002
 750.50  4.9012E+002
 751.00  4.9177E+002
 751.50  4.8759E+002
 752.00  4.9464E+002
 752.50  5.1308E+002
 753.00  5.2005E+002
 753.50  5.2339E+002
 754.00  5.2637E+002
 754.50  5.1379E+002
 755.00  4.9933E+002
 755.50  4.9724E+002
 756.00  5.0346E+002
 756.50  5.1034E+002
 757.00  5.1766E+002
 757.50  5.2380E+002
 758.00  5.2054E+002
 758.50  5.0941E+002
 759.00  5.1118E+002
 759.50  5.1905E+002
 760.00  5.1774E+002
 760.50  5.1120E+002
 761.00  5.0954E+002
 761.50  5.0163E+002
 762.00  4.9833E+002
 762.50  5.0279E+002
 763.00  5.0361E+002
 763.50  5.0952E+002
 764.00  5.1917E+002
 764.50  5.2727E+002
 765.00  5.4007E+002
 765.50  5.4351E+002
 766.00  5.3437E+002
 766.50  5.3620E+002
 767.00  5.5272E+002
 767.50  5.7813E+002
 768.00  6.0679E+002
 768.50  6.2084E+002
 769.00  6.1108E+002
 769.50  5.7948E+002
 770.00  5.4913E+002
 770.50  5.3859E+002
 771.00  5.4192E+002
 771.50  5.6432E+002
 772.00  6.0425E+002
 772.50  6.3650E+002
 773.00  6.5494E+002
 773.50  6.6178E+002
 774.00  6.5088E+002
 774.50  6.2550E+002
 775.00  6.0223E+002
 775.50  5.8942E+002
 776.00  5.8382E+002
 776.50  5.6991E+002
 777.00  5.5727E+002
 777.50  5.4388E+002
 778.00  5.2647E+002
 778.50  5.0879E+002
 779.00  5.0423E+002
 779.50  5.0745E+002
 780.00  5.0587E+002
 780.50  4.9285E+002
 781.00  4.8148E+002
 781.50  4.8068E+002
 782.00  4.8307E+002
 782.50  4.9188E+002
 783.00  5.1493E+002
 783.50  5.3896E+002
 784.00  5.5116E+002
 784.50  5.5448E+002
 785.00  5.5080E+002
 785.50  5.4433E+002
 786.00  5.4084E+002
 786.50  5.4406E+002
 787.00  5.6016E+002
 787.50  5.8082E+002
 788.00  5.9428E+002
 788.50  5.9869E+002
 789.00  6.0497E+002
 789.50  6.1354E+002
 790.00  6.2477E+002
 790.50  6.2611E+002
 791.00  6.1924E+002
 791.50  5.9986E+002
 792.00  5.6855E+002
 792.50  5.4194E+002
 793.00  5.3392E+002
 793.50  5.4244E+002
 794.00  5.6402E+002
 794.50  5.8351E+002
 795.00  5.8692E+002
 795.50  5.8549E+002
 796.00  5.8082E+002
 796.50  5.6818E+002
 797.00  5.6485E+002
 797.50  5.7234E+002
 798.00  5.6687E+002
 798.50  5.4715E+002
 799.00  5.3257E+002
 799.50  5.1809E+002
 800.00  4.9843E+002
 800.50  4.8368E+002
 801.00  4.8186E+002
 801.50  4.8926E+002
 802.00  5.0151E+002
 802.50  5.1477E+002
 803.00  5.3228E+002
 803.50  5.3923E+002
 804.00  5.2974E+002
 804.50  5.1160E+002
 805.00  5.0224E+002
 805.50  4.9384E+002
 806.00  4.9679E+002
 806.50  5.0614E+002
 807.00  5.1565E+002
 807.50  5.1987E+002
 808.00  5.2340E+002
 808.50  5.3329E+002
 809.00  5.5089E+002
 809.50  5.6557E+002
 810.00  5.7871E+002
 810.50  5.9126E+002
 811.00  5.8737E+002
 811.50  5.7504E+002
 812.00  5.7192E+002
 812.50  5.6113E+002
 813.00  5.4132E+002
 813.50  5.3056E+002
 814.00  5.2106E+002
 814.50  5.0844E+002
 815.00  5.0353E+002
 815.50  5.0362E+002
 816.00  4.9231E+002
 816.50  4.7626E+002
 817.00  4.6816E+002
 817.50  4.6126E+002
 818.00  4.5942E+002
 818.50  4.7925E+002
 819.00  5.0085E+002
 819.50  5.1467E+002
 820.00  5.2897E+002
 820.50  5.3575E+002
 821.00  5.3349E+002
 821.50  5.3021E+002
 822.00  5.2527E+002
 822.50  5.1945E+002
 823.00  5.1657E+002
 823.50  5.2544E+002
 824.00  5.4497E+002
 824.50  5.5543E+002
 825.00  5.5581E+002
 825.50  5.5412E+002
 826.00  5.4295E+002
 826.50  5.2466E+002
 827.00  5.1879E+002
 827.50  5.2248E+002
 828.00  5.2969E+002
 828.50  5.3454E+002
 829.00  5.3790E+002
 829.50  5.4188E+002
 830.00  5.4585E+002
 830.50  5.4837E+002
 831.00  5.5551E+002
 831.50  5.6552E+002
 832.00  5.7026E+002
 832.50  5.7058E+002
 833.00  5.6587E+002
 833.50  5.4041E+002
 834.00  5.0869E+002
 834.50  4.9188E+002
 835.00  4.7916E+002
 835.50  4.7278E+002
 836.00  4.8656E+002
 836.50  4.9860E+002
 837.00  4.9944E+002
 837.50  5.0612E+002
 838.00  5.1528E+002
 838.50  5.2820E+002
 839.00  5.5320E+002
 839.50  5.8260E+002
 840.00  6.0526E+002
 840.50  6.1593E+002
 841.00  6.1203E+002
 841.50  5.8915E+002
 842.00  5.6117E+002
 842.50  5.4090E+002
 843.00  5.2860E+002
 843.50  5.1933E+002
 844.00  5.1240E+002
 844.50  4.9846E+002
 845.00  4.9046E+002
 845.50  5.0462E+002
 846.00  5.3084E+002
 846.50  5.5763E+002
 847.00  5.8836E+002
 847.50  6.0564E+002
 848.00  5.9975E+002
 848.50  5.8752E+002
 849.00  5.8557E+002
 849.50  5.8658E+002
 850.00  5.8333E+002
 850.50  5.8248E+002
 851.00  5.9661E+002
 851.50  6.1121E+002
 852.00  6.2352E+002
 852.50  6.3835E+002
 853.00  6.4342E+002
 853.50  6.3722E+002
 854.00  6.2884E+002
 854.50  6.1155E+002
 855.00  5.9881E+002
 855.50  5.9485E+002
 856.00  5.8653E+002
 856.50  5.6580E+002
 857.00  5.5598E+002
 857.50  5.5636E+002
 858.00  5.5770E+002
 858.50  5.5074E+002
 859.00  5.5814E+002
 859.50  5.6928E+002
 860.00  5.5916E+002
 860.50  5.3923E+002
 861.00  5.1320E+002
 861.50  4.7296E+002
 862.00  4.2907E+002
 862.50  4.1112E+002
 863.00  4.2648E+002
 863.50  4.6398E+002
 864.00  5.0924E+002
 864.50  5.3865E+002
 865.00  5.3010E+002
 865.50  5.0174E+002
 866.00  4.7936E+002
 866.50  4.5584E+002
 867.00  4.4393E+002
 867.50  4.4935E+002
 868.00  4.5898E+002
 868.50  4.6804E+002
 869.00  4.8254E+002
 869.50  4.9974E+002
 870.00  5.2515E+002
 870.50  5.4395E+002
 871.00  5.4724E+002
 871.50  5.5959E+002
 872.00  5.7004E+002
 872.50  5.6941E+002
 873.00  5.6251E+002
 873.50  5.5369E+002
 874.00  5.4336E+002
 874.50  5.3669E+002
 875.00  5.3608E+002
 875.50  5.4691E+002
 876.00  5.6697E+002
 876.50  5.8299E+002
 877.00  5.8381E+002
 877.50  5.7909E+002
 878.00  5.7317E+002
 878.50  5.5772E+002
 879.00  5.3691E+002
 879.50  5.3354E+002
 880.00  5.2914E+002
 880.50  5.1793E+002
 881.00  5.1547E+002
 881.50  5.2777E+002
 882.00  5.3411E+002
 882.50  5.4043E+002
 883.00  5.5393E+002
 883.50  5.6230E+002
 884.00  5.6139E+002
 884.50  5.4896E+002
 885.00  5.2327E+002
 885.50  4.9934E+002
 886.00  4.8804E+002
 886.50  4.7859E+002
 887.00  4.8052E+002
 887.50  4.9736E+002
 888.00  5.1187E+002
 888.50  5.1988E+002
 889.00  5.2543E+002
 889.50  5.2421E+002
 890.00  5.0729E+002
 890.50  4.7412E+002
 891.00  4.4281E+002
 891.50  4.3046E+002
 892.00  4.3319E+002
 892.50  4.4588E+002
 893.00  4.6092E+002
 893.50  4.7201E+002
 894.00  4.8183E+002
 894.50  4.8019E+002
 895.00  4.6940E+002
 895.50  4.7077E+002
 896.00  4.8348E+002
 896.50  4.9329E+002
 897.00  5.1525E+002
 897.50  5.4584E+002
 898.00  5.6834E+002
 898.50  5.7868E+002
 899.00  5.7690E+002
 899.50  5.6307E+002
 900.00  5.5291E+002
 900.50  5.5039E+002
 901.00  5.4242E+002
 901.50  5.2653E+002
 902.00  5.1023E+002
 902.50  4.8827E+002
 903.00  4.6560E+002
 903.50  4.6750E+002
 904.00  4.8831E+002
 904.50  5.0443E+002
 905.00  5.2251E+002
 905.50  5.4928E+002
 906.00  5.6518E+002
 906.50  5.6753E+002
 907.00  5.6629E+002
 907.50  5.6367E+002
 908.00  5.3668E+002
 908.50  5.0615E+002
 909.00  4.9539E+002
 909.50  4.9272E+002
 910.00  4.9251E+002
 910.50  5.0660E+002
 911.00  5.2144E+002
 911.50  5.3139E+002
 912.00  5.4940E+002
 912.50  5.5867E+002
 913.00  5.5925E+002
 913.50  5.6735E+002
 914.00  5.7389E+002
 914.50  5.7219E+002
 915.00  5.7571E+002
 915.50  5.7177E+002
 916.00  5.5370E+002
 916.50  5.4122E+002
 917.00  5.3146E+002
 917.50  5.1899E+002
 918.00  5.1114E+002
 918.50  5.0063E+002
 919.00  4.7868E+002
 919.50  4.5756E+002
 920.00  4.4038E+002
 920.50  4.2560E+002
 921.00  4.2693E+002
 921.50  4.4130E+002
 922.00  4.4693E+002
 922.50  4.4212E+002
 923.00  4.4788E+002
 923.50  4.4508E+002
 924.00  4.3621E+002
 924.50  4.4101E+002
 925.00  4.5022E+002
 925.50  4.4600E+002
 926.00  4.3654E+002
 926.50  4.2044E+002
 927.00  3.9575E+002
 927.50  3.7530E+002
 928.00  3.6587E+002
 928.50  3.6081E+002
 929.00  3.7346E+002
 929.50  4.1044E+002
 930.00  4.5491E+002
 930.50  4.9579E+002
 931.00  5.3580E+002
 931.50  5.6315E+002
 932.00  5.6862E+002
 932.50  5.5982E+002
 933.00  5.5360E+002
 933.50  5.4432E+002
 934.00  5.2246E+002
 934.50  5.0413E+002
 935.00  4.9678E+002
 935.50  4.8947E+002
 936.00  4.7581E+002
 936.50  4.6892E+002
 937.00  4.6761E+002
 937.50  4.5763E+002
 938.00  4.3817E+002
 938.50  4.1783E+002
 939.00  4.0608E+002
 939.50  3.8805E+002
 940.00  3.7826E+002
 940.50  3.8287E+002
 941.00  4.0592E+002
 941.50  4.3134E+002
 942.00  4.5702E+002
 942.50  4.8493E+002
 943.00  5.0265E+002
 943.50  5.0120E+002
 944.00  4.9221E+002
 944.50  4.8263E+002
 945.00  4.7241E+002
 945.50  4.6790E+002
 946.00  4.6882E+002
 946.50  4.7317E+002
 947.00  4.8470E+002
 947.50  4.9757E+002
 948.00  5.0469E+002
 948.50  5.1006E+002
 949.00  5.0718E+002
 949.50  4.8857E+002
 950.00  4.6456E+002
 950.50  4.5080E+002
 951.00  4.5249E+002
 951.50  4.6834E+002
 952.00  4.7869E+002
 952.50  4.8349E+002
 953.00  4.8859E+002
 953.50  4.8681E+002
 954.00  4.7528E+002
 954.50  4.6942E+002
 955.00  4.6991E+002
 955.50  4.6910E+002
 956.00  4.7121E+002
 956.50  4.8343E+002
 957.00  5.1237E+002
 957.50  5.4184E+002
 958.00  5.5043E+002
 958.50  5.4622E+002
 959.00  5.4394E+002
 959.50  5.3567E+002
 960.00  5.2818E+002
 960.50  5.3306E+002
 961.00  5.3391E+002
 961.50  5.1733E+002
 962.00  5.0089E+002
 962.50  4.9132E+002
 963.00  4.8452E+002
 963.50  4.9288E+002
 964.00  5.1603E+002
 964.50  5.2899E+002
 965.00  5.2567E+002
 965.50  5.1583E+002
 966.00  5.0099E+002
 966.50  4.8464E+002
 967.00  4.7614E+002
 967.50  4.8564E+002
 968.00  5.0356E+002
 968.50  5.0733E+002
 969.00  5.0131E+002
 969.50  4.9770E+002
 970.00  4.8890E+002
 970.50  4.8078E+002
 971.00  4.8683E+002
 971.50  4.8860E+002
 972.00  4.9200E+002
 972.50  4.9819E+002
 973.00  4.9100E+002
 973.50  4.8459E+002
 974.00  4.8393E+002
 974.50  4.7953E+002
 975.00  4.8157E+002
 975.50  4.9979E+002
 976.00  5.1790E+002
 976.50  5.3273E+002
 977.00  5.3497E+002
 977.50  5.2517E+002
 978.00  5.0021E+002
 978.50  4.6306E+002
 979.00  4.2511E+002
 979.50  4.0075E+002
 980.00  3.9380E+002
 980.50  4.1450E+002
 981.00  4.6096E+002
 981.50  5.1538E+002
 982.00  5.6406E+002
 982.50  5.9445E+002
 983.00  5.8901E+002
 983.50  5.6248E+002
 984.00  5.4454E+002
 984.50  5.4167E+002
 985.00  5.5935E+002
 985.50  6.0970E+002
 986.00  6.6103E+002
 986.50  6.8643E+002
 987.00  6.9135E+002
 987.50  6.7091E+002
 988.00  6.3184E+002
 988.50  5.9653E+002
 989.00  5.7186E+002
 989.50  5.5035E+002
 990.00  5.4120E+002
 990.50  5.3845E+002
 991.00  5.4677E+002
 991.50  5.5719E+002
 992.00  5.5694E+002
 992.50  5.5568E+002
 993.00  5.5006E+002
 993.50  5.3249E+002
 994.00  5.0884E+002
 994.50  4.8510E+002
 995.00  4.6466E+002
 995.50  4.4457E+002
 996.00  4.2950E+002
 996.50  4.3338E+002
 997.00  4.5057E+002
 997.50  4.7056E+002
 998.00  4.9275E+002
 998.50  5.0764E+002
 999.00  5.1041E+002
 999.50  5.1012E+002
1000.00  5.0238E+002
1000.50  4.8757E+002
1001.00  4.7799E+002
1001.50  4.8453E+002
1002.00  5.0150E+002
1002.50  5.2505E+002
1003.00  5.5453E+002
1003.50  5.7718E+002
1004.00  5.8587E+002
1004.50  5.8328E+002
1005.00  5.6557E+002
1005.50  5.4385E+002
1006.00  5.3071E+002
1006.50  5.1514E+002
1007.00  4.9812E+002
1007.50  4.9681E+002
1008.00  5.0819E+002
1008.50  5.1805E+002
1009.00  5.2831E+002
1009.50  5.4381E+002
1010.00  5.4656E+002
1010.50  5.3015E+002
1011.00  5.0844E+002
1011.50  5.0305E+002
1012.00  4.9995E+002
1012.50  5.0250E+002
1013.00  5.0833E+002
1013.50  5.0926E+002
1014.00  4.9710E+002
1014.50  4.8843E+002
1015.00  4.9314E+002
1015.50  4.9791E+002
1016.00  5.0161E+002
1016.50  5.0571E+002
1017.00  4.9843E+002
1017.50  4.8105E+002
1018.00  4.7534E+002
1018.50  4.7711E+002
1019.00  4.7833E+002
1019.50  4.8969E+002
1020.00  4.9652E+002
1020.50  5.0724E+002
1021.00  5.3568E+002
1021.50  5.6787E+002
1022.00  5.9331E+002
1022.50  6.1706E+002
1023.00  6.2378E+002
1023.50  6.1420E+002
1024.00  5.9570E+002
1024.50  5.6479E+002
1025.00  5.3810E+002
1025.50  5.2821E+002
1026.00  5.1819E+002
1026.50  5.0679E+002
1027.00  5.0897E+002
1027.50  5.1558E+002
1028.00  5.1209E+002
1028.50  5.0766E+002
1029.00  5.0619E+002
1029.50  5.0120E+002
1030.00  4.9627E+002
1030.50  4.9581E+002
1031.00  4.9451E+002
1031.50  4.9624E+002
1032.00  5.0044E+002
1032.50  4.8904E+002
1033.00  4.6470E+002
1033.50  4.4167E+002
1034.00  4.1708E+002
1034.50  4.1023E+002
1035.00  4.2622E+002
1035.50  4.5444E+002
1036.00  4.7816E+002
1036.50  4.9681E+002
1037.00  5.0006E+002
1037.50  5.0431E+002
1038.00  5.0783E+002
1038.50  5.1750E+002
1039.00  5.3143E+002
1039.50  5.3355E+002
1040.00  5.2542E+002
1040.50  5.0860E+002
1041.00  4.8842E+002
1041.50  4.6778E+002
1042.00  4.4862E+002
1042.50  4.3284E+002
1043.00  4.3186E+002
1043.50  4.3487E+002
1044.00  4.4672E+002
1044.50  4.8130E+002
1045.00  5.1556E+002
1045.50  5.3850E+002
1046.00  5.5493E+002
1046.50  5.5966E+002
1047.00  5.4661E+002
1047.50  5.3623E+002
1048.00  5.2166E+002
1048.50  4.9716E+002
1049.00  4.7093E+002
1049.50  4.4560E+002
1050.00  4.2529E+002
1050.50  4.2019E+002
1051.00  4.2938E+002
1051.50  4.4566E+002
1052.00  4.5636E+002
1052.50  4.5105E+002
1053.00  4.4280E+002
1053.50  4.4651E+002
1054.00  4.6110E+002
1054.50  4.8553E+002
1055.00  5.1517E+002
1055.50  5.3601E+002
1056.00  5.4046E+002
1056.50  5.3422E+002
1057.00  5.2925E+002
1057.50  5.3436E+002
1058.00  5.4938E+002
1058.50  5.6359E+002
1059.00  5.6698E+002
1059.50  5.5879E+002
1060.00  5.4142E+002
1060.50  5.1952E+002
1061.00  5.0422E+002
1061.50  5.0326E+002
1062.00  5.0697E+002
1062.50  5.0989E+002
1063.00  5.0598E+002
1063.50  5.0014E+002
1064.00  4.9462E+002
1064.50  4.8348E+002
1065.00  4.6751E+002
1065.50  4.5572E+002
1066.00  4.4915E+002
1066.50  4.4920E+002
1067.00  4.6940E+002
1067.50  4.9867E+002
1068.00  5.2482E+002
1068.50  5.4624E+002
1069.00  5.4839E+002
1069.50  5.2700E+002
1070.00  5.0443E+002
1070.50  4.9085E+002
1071.00  4.7577E+002
1071.50  4.7831E+002
1072.00  4.9735E+002
1072.50  5.1319E+002
1073.00  5.2123E+002
1073.50  5.2448E+002
1074.00  5.2005E+002
1074.50  5.1653E+002
1075.00  5.1534E+002
1075.50  5.1523E+002
1076.00  5.2453E+002
1076.50  5.4103E+002
1077.00  5.4735E+002
1077.50  5.5249E+002
1078.00  5.5720E+002
1078.50  5.5500E+002
1079.00  5.4729E+002
1079.50  5.3390E+002
1080.00  5.2118E+002
1080.50  5.1830E+002
1081.00  5.2194E+002
1081.50  5.2699E+002
1082.00  5.3507E+002
1082.50  5.3307E+002
1083.00  5.2165E+002
1083.50  5.1325E+002
1084.00  5.0810E+002
1084.50  5.0989E+002
1085.00  5.2635E+002
1085.50  5.4293E+002
1086.00  5.4499E+002
1086.50  5.4259E+002
1087.00  5.4917E+002
1087.50  5.6043E+002
1088.00  5.7291E+002
1088.50  5.8623E+002
1089.00  5.9227E+002
1089.50  5.8200E+002
1090.00  5.5931E+002
1090.50  5.3418E+002
1091.00  5.1279E+002
1091.50  4.9941E+002
1092.00  4.9360E+002
1092.50  4.9138E+002
1093.00  4.8700E+002
1093.50  4.8128E+002
1094.00  4.8046E+002
1094.50  4.9088E+002
1095.00  5.1558E+002
1095.50  5.5301E+002
1096.00  5.8681E+002
1096.50  5.9740E+002
1097.00  5.8894E+002
1097.50  5.7588E+002
1098.00  5.6926E+002
1098.50  5.7588E+002
1099.00  5.9416E+002
1099.50  6.0795E+002
1100.00  6.0841E+002
1100.50  5.9494E+002
1101.00  5.7228E+002
1101.50  5.5036E+002
1102.00  5.3889E+002
1102.50  5.3555E+002
1103.00  5.3381E+002
1103.50  5.3226E+002
1104.00  5.3395E+002
1104.50  5.3540E+002
1105.00  5.3310E+002
1105.50  5.2737E+002
1106.00  5.1802E+002
1106.50  5.0337E+002
1107.00  4.8776E+002
1107.50  4.7787E+002
1108.00  4.7668E+002
1108.50  4.7489E+002
1109.00  4.7768E+002
1109.50  4.8170E+002
1110.00  4.7919E+002
1110.50  4.6928E+002
1111.00  4.6979E+002
1111.50  4.7569E+002
1112.00  4.8391E+002
1112.50  5.0053E+002
1113.00  5.1988E+002
1113.50  5.3381E+002
1114.00  5.3899E+002
1114.50  5.3219E+002
1115.00  5.1484E+002
1115.50  5.0343E+002
1116.00  5.0061E+002
1116.50  5.0578E+002
1117.00  5.2026E+002
1117.50  5.4233E+002
1118.00  5.5051E+002
1118.50  5.4419E+002
1119.00  5.3887E+002
1119.50  5.3238E+002
1120.00  5.2519E+002
1120.50  5.2477E+002
1121.00  5.3037E+002
1121.50  5.2667E+002
1122.00  5.1263E+002
1122.50  5.0079E+002
1123.00  4.8377E+002
1123.50  4.6013E+002
1124.00  4.4643E+002
1124.50  4.0456E+002
1125.00  4.3568E+002
1125.50  5.0725E+002
