" File: Users\dcaka\Documents\Spectra_data\20210
" SCOPE->  Wave:1115.08nm  Pix:2027  Val:506.390  Time:1000ms  Avg:1  Sm:1  Sg:0  Tc:off  SNAP  Xt:3  Ch:1  Xtrig
 500.00  6.3950E+002
 500.50  6.2541E+002
 501.00  5.9940E+002
 501.50  5.7921E+002
 502.00  5.7478E+002
 502.50  5.6213E+002
 503.00  5.5848E+002
 503.50  5.6372E+002
 504.00  5.5512E+002
 504.50  5.4532E+002
 505.00  5.3507E+002
 505.50  5.2558E+002
 506.00  5.2129E+002
 506.50  5.1188E+002
 507.00  4.9456E+002
 507.50  4.8317E+002
 508.00  4.7478E+002
 508.50  4.5958E+002
 509.00  4.5070E+002
 509.50  4.4203E+002
 510.00  4.1951E+002
 510.50  3.9704E+002
 511.00  3.9190E+002
 511.50  4.0306E+002
 512.00  4.2237E+002
 512.50  4.3663E+002
 513.00  4.4114E+002
 513.50  4.3100E+002
 514.00  4.2342E+002
 514.50  4.3152E+002
 515.00  4.5104E+002
 515.50  4.7707E+002
 516.00  4.9224E+002
 516.50  4.8831E+002
 517.00  4.7151E+002
 517.50  4.5726E+002
 518.00  4.4863E+002
 518.50  4.5168E+002
 519.00  4.5875E+002
 519.50  4.5908E+002
 520.00  4.4532E+002
 520.50  4.2916E+002
 521.00  4.0634E+002
 521.50  3.7381E+002
 522.00  3.3925E+002
 522.50  3.2603E+002
 523.00  3.3480E+002
 523.50  3.5677E+002
 524.00  3.9083E+002
 524.50  4.2526E+002
 525.00  4.3924E+002
 525.50  4.3838E+002
 526.00  4.2762E+002
 526.50  4.0815E+002
 527.00  3.9095E+002
 527.50  3.7632E+002
 528.00  3.6779E+002
 528.50  3.7381E+002
 529.00  3.7280E+002
 529.50  3.5083E+002
 530.00  3.3061E+002
 530.50  3.2134E+002
 531.00  3.1975E+002
 531.50  3.4526E+002
 532.00  3.9275E+002
 532.50  4.1579E+002
 533.00  4.2137E+002
 533.50  4.2505E+002
 534.00  4.1810E+002
 534.50  4.0206E+002
 535.00  3.9554E+002
 535.50  3.9187E+002
 536.00  3.9737E+002
 536.50  4.2653E+002
 537.00  4.4457E+002
 537.50  4.3941E+002
 538.00  4.3210E+002
 538.50  4.1737E+002
 539.00  4.0514E+002
 539.50  4.1867E+002
 540.00  4.4154E+002
 540.50  4.4603E+002
 541.00  4.3438E+002
 541.50  4.1405E+002
 542.00  3.8091E+002
 542.50  3.5418E+002
 543.00  3.3829E+002
 543.50  3.2595E+002
 544.00  3.1787E+002
 544.50  3.1590E+002
 545.00  3.1035E+002
 545.50  2.9704E+002
 546.00  2.8205E+002
 546.50  2.6834E+002
 547.00  2.5496E+002
 547.50  2.6784E+002
 548.00  3.0477E+002
 548.50  3.4530E+002
 549.00  3.8679E+002
 549.50  4.2019E+002
 550.00  4.2953E+002
 550.50  4.2621E+002
 551.00  4.1424E+002
 551.50  3.8794E+002
 552.00  3.6563E+002
 552.50  3.4969E+002
 553.00  3.3920E+002
 553.50  3.3903E+002
 554.00  3.4579E+002
 554.50  3.4811E+002
 555.00  3.4877E+002
 555.50  3.5145E+002
 556.00  3.5279E+002
 556.50  3.5572E+002
 557.00  3.6697E+002
 557.50  3.7953E+002
 558.00  4.0242E+002
 558.50  4.3177E+002
 559.00  4.6166E+002
 559.50  4.8524E+002
 560.00  4.9361E+002
 560.50  4.8270E+002
 561.00  4.6715E+002
 561.50  4.5307E+002
 562.00  4.4358E+002
 562.50  4.5083E+002
 563.00  4.6729E+002
 563.50  4.8197E+002
 564.00  5.0297E+002
 564.50  5.1204E+002
 565.00  5.0299E+002
 565.50  4.8711E+002
 566.00  4.6578E+002
 566.50  4.5833E+002
 567.00  4.8022E+002
 567.50  5.1819E+002
 568.00  5.6283E+002
 568.50  5.9521E+002
 569.00  5.9506E+002
 569.50  5.8234E+002
 570.00  5.7552E+002
 570.50  5.7980E+002
 571.00  5.9023E+002
 571.50  6.0483E+002
 572.00  6.1662E+002
 572.50  6.0793E+002
 573.00  5.8035E+002
 573.50  5.4956E+002
 574.00  5.2111E+002
 574.50  5.1344E+002
 575.00  5.3451E+002
 575.50  5.7288E+002
 576.00  6.0651E+002
 576.50  6.3120E+002
 577.00  6.4718E+002
 577.50  6.5892E+002
 578.00  6.6850E+002
 578.50  6.7616E+002
 579.00  6.8902E+002
 579.50  6.9370E+002
 580.00  6.8388E+002
 580.50  6.8411E+002
 581.00  6.9521E+002
 581.50  7.0110E+002
 582.00  7.1304E+002
 582.50  7.3905E+002
 583.00  7.6559E+002
 583.50  7.8359E+002
 584.00  7.9777E+002
 584.50  7.8938E+002
 585.00  7.5249E+002
 585.50  7.1205E+002
 586.00  6.7514E+002
 586.50  6.6566E+002
 587.00  6.8170E+002
 587.50  7.1523E+002
 588.00  7.5105E+002
 588.50  7.7691E+002
 589.00  7.9768E+002
 589.50  8.2005E+002
 590.00  8.4033E+002
 590.50  8.6753E+002
 591.00  8.9138E+002
 591.50  9.0059E+002
 592.00  9.0659E+002
 592.50  9.1076E+002
 593.00  9.0093E+002
 593.50  8.8792E+002
 594.00  8.7643E+002
 594.50  8.6699E+002
 595.00  8.7064E+002
 595.50  8.8746E+002
 596.00  9.1642E+002
 596.50  9.4637E+002
 597.00  9.6061E+002
 597.50  9.6149E+002
 598.00  9.5558E+002
 598.50  9.3820E+002
 599.00  9.1779E+002
 599.50  9.0033E+002
 600.00  8.9180E+002
 600.50  8.9064E+002
 601.00  8.8458E+002
 601.50  8.7012E+002
 602.00  8.5074E+002
 602.50  8.1865E+002
 603.00  8.0051E+002
 603.50  7.9336E+002
 604.00  7.9522E+002
 604.50  8.0632E+002
 605.00  8.1664E+002
 605.50  8.2337E+002
 606.00  8.2676E+002
 606.50  8.2156E+002
 607.00  8.0767E+002
 607.50  7.8502E+002
 608.00  7.6926E+002
 608.50  7.6759E+002
 609.00  7.8474E+002
 609.50  8.1275E+002
 610.00  8.2872E+002
 610.50  8.2790E+002
 611.00  8.1547E+002
 611.50  7.8450E+002
 612.00  7.5334E+002
 612.50  7.4414E+002
 613.00  7.4979E+002
 613.50  7.6360E+002
 614.00  7.9106E+002
 614.50  8.1845E+002
 615.00  8.3418E+002
 615.50  8.5055E+002
 616.00  8.7095E+002
 616.50  8.8863E+002
 617.00  9.1038E+002
 617.50  9.3636E+002
 618.00  9.4517E+002
 618.50  9.3892E+002
 619.00  9.3025E+002
 619.50  9.1065E+002
 620.00  8.9646E+002
 620.50  8.9578E+002
 621.00  9.0883E+002
 621.50  9.3132E+002
 622.00  9.4935E+002
 622.50  9.5667E+002
 623.00  9.6199E+002
 623.50  9.7052E+002
 624.00  9.8380E+002
 624.50  9.8839E+002
 625.00  9.8558E+002
 625.50  9.7919E+002
 626.00  9.6709E+002
 626.50  9.5429E+002
 627.00  9.6046E+002
 627.50  9.7768E+002
 628.00  9.9722E+002
 628.50  1.0014E+003
 629.00  9.9539E+002
 629.50  9.8190E+002
 630.00  9.5876E+002
 630.50  9.4546E+002
 631.00  9.5124E+002
 631.50  9.5353E+002
 632.00  9.6034E+002
 632.50  9.8059E+002
 633.00  9.9279E+002
 633.50  1.0008E+003
 634.00  1.0221E+003
 634.50  1.0403E+003
 635.00  1.0403E+003
 635.50  1.0347E+003
 636.00  1.0203E+003
 636.50  9.9494E+002
 637.00  9.7057E+002
 637.50  9.4340E+002
 638.00  9.3304E+002
 638.50  9.4049E+002
 639.00  9.5181E+002
 639.50  9.7044E+002
 640.00  9.8533E+002
 640.50  9.9085E+002
 641.00  1.0073E+003
 641.50  1.0277E+003
 642.00  1.0397E+003
 642.50  1.0524E+003
 643.00  1.0548E+003
 643.50  1.0337E+003
 644.00  1.0071E+003
 644.50  9.8738E+002
 645.00  9.5306E+002
 645.50  9.1587E+002
 646.00  8.9778E+002
 646.50  8.8725E+002
 647.00  8.8393E+002
 647.50  8.9963E+002
 648.00  9.1022E+002
 648.50  9.0098E+002
 649.00  8.9643E+002
 649.50  8.9238E+002
 650.00  8.9068E+002
 650.50  8.9561E+002
 651.00  9.1492E+002
 651.50  9.2828E+002
 652.00  9.4093E+002
 652.50  9.5025E+002
 653.00  9.5972E+002
 653.50  9.6989E+002
 654.00  9.7347E+002
 654.50  9.7663E+002
 655.00  9.9486E+002
 655.50  1.0072E+003
 656.00  1.0060E+003
 656.50  1.0147E+003
 657.00  1.0129E+003
 657.50  9.9359E+002
 658.00  9.7462E+002
 658.50  9.5501E+002
 659.00  9.2749E+002
 659.50  9.1071E+002
 660.00  9.1339E+002
 660.50  9.3164E+002
 661.00  9.4754E+002
 661.50  9.5630E+002
 662.00  9.6507E+002
 662.50  9.6175E+002
 663.00  9.5017E+002
 663.50  9.6448E+002
 664.00  9.9475E+002
 664.50  1.0131E+003
 665.00  1.0253E+003
 665.50  1.0287E+003
 666.00  1.0114E+003
 666.50  9.8329E+002
 667.00  9.6651E+002
 667.50  9.6132E+002
 668.00  9.6404E+002
 668.50  9.8435E+002
 669.00  1.0101E+003
 669.50  1.0270E+003
 670.00  1.0480E+003
 670.50  1.0708E+003
 671.00  1.0761E+003
 671.50  1.0714E+003
 672.00  1.0570E+003
 672.50  1.0345E+003
 673.00  1.0034E+003
 673.50  9.6849E+002
 674.00  9.3775E+002
 674.50  9.1053E+002
 675.00  8.8613E+002
 675.50  8.6795E+002
 676.00  8.5958E+002
 676.50  8.6517E+002
 677.00  8.9102E+002
 677.50  9.1581E+002
 678.00  9.3344E+002
 678.50  9.4381E+002
 679.00  9.5224E+002
 679.50  9.4939E+002
 680.00  9.4079E+002
 680.50  9.4098E+002
 681.00  9.3828E+002
 681.50  9.2258E+002
 682.00  9.0683E+002
 682.50  8.9140E+002
 683.00  8.7444E+002
 683.50  8.6635E+002
 684.00  8.7323E+002
 684.50  8.9796E+002
 685.00  9.2582E+002
 685.50  9.4388E+002
 686.00  9.6333E+002
 686.50  9.8110E+002
 687.00  9.9630E+002
 687.50  1.0142E+003
 688.00  1.0216E+003
 688.50  1.0155E+003
 689.00  1.0046E+003
 689.50  9.8743E+002
 690.00  9.7400E+002
 690.50  9.6983E+002
 691.00  9.7233E+002
 691.50  9.6983E+002
 692.00  9.5947E+002
 692.50  9.6980E+002
 693.00  9.8889E+002
 693.50  1.0003E+003
 694.00  1.0137E+003
 694.50  1.0218E+003
 695.00  1.0190E+003
 695.50  1.0216E+003
 696.00  1.0279E+003
 696.50  1.0311E+003
 697.00  1.0301E+003
 697.50  1.0205E+003
 698.00  9.9292E+002
 698.50  9.6555E+002
 699.00  9.5766E+002
 699.50  9.6069E+002
 700.00  9.6754E+002
 700.50  9.9003E+002
 701.00  1.0175E+003
 701.50  1.0404E+003
 702.00  1.0607E+003
 702.50  1.0738E+003
 703.00  1.0824E+003
 703.50  1.0884E+003
 704.00  1.0844E+003
 704.50  1.0792E+003
 705.00  1.0771E+003
 705.50  1.0694E+003
 706.00  1.0625E+003
 706.50  1.0629E+003
 707.00  1.0553E+003
 707.50  1.0305E+003
 708.00  1.0006E+003
 708.50  9.6479E+002
 709.00  9.2419E+002
 709.50  9.0462E+002
 710.00  9.0777E+002
 710.50  9.1093E+002
 711.00  9.1267E+002
 711.50  9.1158E+002
 712.00  9.0700E+002
 712.50  9.0620E+002
 713.00  9.0077E+002
 713.50  8.9930E+002
 714.00  9.1147E+002
 714.50  9.1675E+002
 715.00  9.2121E+002
 715.50  9.4247E+002
 716.00  9.7068E+002
 716.50  1.0001E+003
 717.00  1.0361E+003
 717.50  1.0688E+003
 718.00  1.0842E+003
 718.50  1.0731E+003
 719.00  1.0440E+003
 719.50  1.0077E+003
 720.00  9.7826E+002
 720.50  9.5194E+002
 721.00  9.3473E+002
 721.50  9.2627E+002
 722.00  9.3127E+002
 722.50  9.4394E+002
 723.00  9.6672E+002
 723.50  9.9104E+002
 724.00  1.0047E+003
 724.50  1.0103E+003
 725.00  1.0078E+003
 725.50  9.9245E+002
 726.00  9.7964E+002
 726.50  9.7232E+002
 727.00  9.5108E+002
 727.50  9.2654E+002
 728.00  9.2439E+002
 728.50  9.2982E+002
 729.00  9.4328E+002
 729.50  9.8503E+002
 730.00  1.0305E+003
 730.50  1.0507E+003
 731.00  1.0523E+003
 731.50  1.0470E+003
 732.00  1.0301E+003
 732.50  1.0123E+003
 733.00  1.0015E+003
 733.50  9.8408E+002
 734.00  9.5495E+002
 734.50  9.2515E+002
 735.00  9.0547E+002
 735.50  9.0283E+002
 736.00  9.1922E+002
 736.50  9.4713E+002
 737.00  9.7766E+002
 737.50  9.9573E+002
 738.00  1.0011E+003
 738.50  1.0030E+003
 739.00  9.9997E+002
 739.50  9.9198E+002
 740.00  9.8333E+002
 740.50  9.5358E+002
 741.00  9.1083E+002
 741.50  8.7691E+002
 742.00  8.4940E+002
 742.50  8.3927E+002
 743.00  8.5173E+002
 743.50  8.6223E+002
 744.00  8.7761E+002
 744.50  8.9370E+002
 745.00  9.0131E+002
 745.50  9.0096E+002
 746.00  8.9450E+002
 746.50  8.8939E+002
 747.00  8.8294E+002
 747.50  8.8026E+002
 748.00  8.9384E+002
 748.50  9.1911E+002
 749.00  9.4309E+002
 749.50  9.5897E+002
 750.00  9.6274E+002
 750.50  9.5592E+002
 751.00  9.3477E+002
 751.50  9.1080E+002
 752.00  9.0840E+002
 752.50  9.0527E+002
 753.00  8.8642E+002
 753.50  8.6559E+002
 754.00  8.4292E+002
 754.50  8.2711E+002
 755.00  8.4308E+002
 755.50  8.8290E+002
 756.00  9.2796E+002
 756.50  9.6144E+002
 757.00  9.7746E+002
 757.50  9.7590E+002
 758.00  9.6091E+002
 758.50  9.4342E+002
 759.00  9.3254E+002
 759.50  9.1481E+002
 760.00  8.8800E+002
 760.50  8.6384E+002
 761.00  8.5185E+002
 761.50  8.4299E+002
 762.00  8.4590E+002
 762.50  8.6272E+002
 763.00  8.7820E+002
 763.50  8.9922E+002
 764.00  9.1905E+002
 764.50  9.2519E+002
 765.00  9.2245E+002
 765.50  9.0723E+002
 766.00  8.8429E+002
 766.50  8.7617E+002
 767.00  8.8724E+002
 767.50  9.0895E+002
 768.00  9.3664E+002
 768.50  9.6483E+002
 769.00  9.7889E+002
 769.50  9.6694E+002
 770.00  9.6178E+002
 770.50  9.5549E+002
 771.00  9.3888E+002
 771.50  9.3219E+002
 772.00  9.2572E+002
 772.50  9.0267E+002
 773.00  8.7849E+002
 773.50  8.6067E+002
 774.00  8.5296E+002
 774.50  8.6200E+002
 775.00  8.7818E+002
 775.50  8.8790E+002
 776.00  8.9038E+002
 776.50  8.8261E+002
 777.00  8.6561E+002
 777.50  8.5552E+002
 778.00  8.6268E+002
 778.50  8.6819E+002
 779.00  8.8091E+002
 779.50  9.0097E+002
 780.00  9.0896E+002
 780.50  9.0812E+002
 781.00  9.1221E+002
 781.50  9.1298E+002
 782.00  9.0722E+002
 782.50  8.9566E+002
 783.00  8.8042E+002
 783.50  8.6826E+002
 784.00  8.6170E+002
 784.50  8.6039E+002
 785.00  8.6087E+002
 785.50  8.5553E+002
 786.00  8.4168E+002
 786.50  8.3075E+002
 787.00  8.2288E+002
 787.50  8.2872E+002
 788.00  8.4047E+002
 788.50  8.3938E+002
 789.00  8.3205E+002
 789.50  8.3212E+002
 790.00  8.3055E+002
 790.50  8.2727E+002
 791.00  8.3439E+002
 791.50  8.3929E+002
 792.00  8.2959E+002
 792.50  8.1471E+002
 793.00  8.0173E+002
 793.50  7.8729E+002
 794.00  7.7638E+002
 794.50  7.7955E+002
 795.00  7.9246E+002
 795.50  8.0733E+002
 796.00  8.2130E+002
 796.50  8.2311E+002
 797.00  8.2131E+002
 797.50  8.1900E+002
 798.00  8.2209E+002
 798.50  8.3343E+002
 799.00  8.4805E+002
 799.50  8.5472E+002
 800.00  8.5008E+002
 800.50  8.4002E+002
 801.00  8.3160E+002
 801.50  8.1869E+002
 802.00  7.9980E+002
 802.50  7.8360E+002
 803.00  7.6898E+002
 803.50  7.5482E+002
 804.00  7.4830E+002
 804.50  7.4830E+002
 805.00  7.5630E+002
 805.50  7.6633E+002
 806.00  7.9106E+002
 806.50  8.1930E+002
 807.00  8.3441E+002
 807.50  8.2802E+002
 808.00  8.1681E+002
 808.50  8.0223E+002
 809.00  7.9030E+002
 809.50  7.9100E+002
 810.00  7.9864E+002
 810.50  7.9731E+002
 811.00  7.8134E+002
 811.50  7.6083E+002
 812.00  7.5412E+002
 812.50  7.6066E+002
 813.00  7.7388E+002
 813.50  7.9803E+002
 814.00  8.1697E+002
 814.50  8.0692E+002
 815.00  7.8184E+002
 815.50  7.5931E+002
 816.00  7.2881E+002
 816.50  7.1275E+002
 817.00  7.1889E+002
 817.50  7.3229E+002
 818.00  7.5370E+002
 818.50  7.7639E+002
 819.00  7.8177E+002
 819.50  7.8330E+002
 820.00  7.8254E+002
 820.50  7.7343E+002
 821.00  7.6667E+002
 821.50  7.5597E+002
 822.00  7.3731E+002
 822.50  7.2494E+002
 823.00  7.2152E+002
 823.50  7.3174E+002
 824.00  7.5449E+002
 824.50  7.6779E+002
 825.00  7.7147E+002
 825.50  7.6118E+002
 826.00  7.2980E+002
 826.50  6.9724E+002
 827.00  6.7518E+002
 827.50  6.5430E+002
 828.00  6.5563E+002
 828.50  6.7848E+002
 829.00  7.0505E+002
 829.50  7.2391E+002
 830.00  7.3425E+002
 830.50  7.3227E+002
 831.00  7.1950E+002
 831.50  7.0629E+002
 832.00  7.0262E+002
 832.50  7.0340E+002
 833.00  6.9980E+002
 833.50  6.8767E+002
 834.00  6.7964E+002
 834.50  6.7545E+002
 835.00  6.8234E+002
 835.50  7.0386E+002
 836.00  7.2466E+002
 836.50  7.3002E+002
 837.00  7.3324E+002
 837.50  7.2795E+002
 838.00  7.1350E+002
 838.50  7.1172E+002
 839.00  7.2287E+002
 839.50  7.3269E+002
 840.00  7.3675E+002
 840.50  7.3824E+002
 841.00  7.2884E+002
 841.50  7.0791E+002
 842.00  6.9538E+002
 842.50  6.9731E+002
 843.00  6.9320E+002
 843.50  6.8316E+002
 844.00  6.7433E+002
 844.50  6.6018E+002
 845.00  6.5328E+002
 845.50  6.8212E+002
 846.00  7.2133E+002
 846.50  7.4962E+002
 847.00  7.6867E+002
 847.50  7.6967E+002
 848.00  7.5179E+002
 848.50  7.3531E+002
 849.00  7.2312E+002
 849.50  7.1500E+002
 850.00  7.0977E+002
 850.50  7.0691E+002
 851.00  7.1261E+002
 851.50  7.1768E+002
 852.00  7.1779E+002
 852.50  7.1716E+002
 853.00  7.1214E+002
 853.50  7.0768E+002
 854.00  7.1082E+002
 854.50  7.1096E+002
 855.00  7.1019E+002
 855.50  6.9989E+002
 856.00  6.7561E+002
 856.50  6.4868E+002
 857.00  6.2655E+002
 857.50  6.0950E+002
 858.00  6.1429E+002
 858.50  6.2321E+002
 859.00  6.3192E+002
 859.50  6.4665E+002
 860.00  6.5224E+002
 860.50  6.5488E+002
 861.00  6.5544E+002
 861.50  6.4599E+002
 862.00  6.3121E+002
 862.50  6.2154E+002
 863.00  6.2556E+002
 863.50  6.5127E+002
 864.00  6.8914E+002
 864.50  7.2139E+002
 865.00  7.3362E+002
 865.50  7.2147E+002
 866.00  6.9725E+002
 866.50  6.6777E+002
 867.00  6.3959E+002
 867.50  6.1278E+002
 868.00  5.9724E+002
 868.50  5.9322E+002
 869.00  6.0445E+002
 869.50  6.1675E+002
 870.00  6.3468E+002
 870.50  6.5193E+002
 871.00  6.5503E+002
 871.50  6.4989E+002
 872.00  6.5382E+002
 872.50  6.6349E+002
 873.00  6.6341E+002
 873.50  6.6172E+002
 874.00  6.6289E+002
 874.50  6.5876E+002
 875.00  6.5368E+002
 875.50  6.5686E+002
 876.00  6.6417E+002
 876.50  6.7333E+002
 877.00  6.7974E+002
 877.50  6.7869E+002
 878.00  6.7347E+002
 878.50  6.5788E+002
 879.00  6.3941E+002
 879.50  6.3116E+002
 880.00  6.2209E+002
 880.50  6.2043E+002
 881.00  6.3414E+002
 881.50  6.4206E+002
 882.00  6.4248E+002
 882.50  6.4631E+002
 883.00  6.4492E+002
 883.50  6.4199E+002
 884.00  6.3635E+002
 884.50  6.2333E+002
 885.00  6.0618E+002
 885.50  5.9334E+002
 886.00  5.8651E+002
 886.50  5.9013E+002
 887.00  6.0641E+002
 887.50  6.2091E+002
 888.00  6.2728E+002
 888.50  6.3450E+002
 889.00  6.3885E+002
 889.50  6.3403E+002
 890.00  6.1981E+002
 890.50  5.9308E+002
 891.00  5.5878E+002
 891.50  5.2803E+002
 892.00  5.1189E+002
 892.50  5.1484E+002
 893.00  5.2748E+002
 893.50  5.4968E+002
 894.00  5.7948E+002
 894.50  6.0419E+002
 895.00  6.1428E+002
 895.50  6.2800E+002
 896.00  6.4520E+002
 896.50  6.4798E+002
 897.00  6.5889E+002
 897.50  6.8061E+002
 898.00  6.9155E+002
 898.50  6.9106E+002
 899.00  6.9542E+002
 899.50  6.9751E+002
 900.00  6.9473E+002
 900.50  6.9058E+002
 901.00  6.8310E+002
 901.50  6.6556E+002
 902.00  6.4339E+002
 902.50  6.2376E+002
 903.00  6.1020E+002
 903.50  6.0835E+002
 904.00  6.1617E+002
 904.50  6.2034E+002
 905.00  6.2267E+002
 905.50  6.2566E+002
 906.00  6.1743E+002
 906.50  5.9379E+002
 907.00  5.7405E+002
 907.50  5.6505E+002
 908.00  5.5136E+002
 908.50  5.4520E+002
 909.00  5.5537E+002
 909.50  5.5990E+002
 910.00  5.6070E+002
 910.50  5.7306E+002
 911.00  5.9066E+002
 911.50  5.9856E+002
 912.00  6.1304E+002
 912.50  6.2674E+002
 913.00  6.3195E+002
 913.50  6.3346E+002
 914.00  6.3133E+002
 914.50  6.2062E+002
 915.00  6.0504E+002
 915.50  5.8099E+002
 916.00  5.5499E+002
 916.50  5.3793E+002
 917.00  5.2425E+002
 917.50  5.2183E+002
 918.00  5.3495E+002
 918.50  5.5637E+002
 919.00  5.7949E+002
 919.50  5.9908E+002
 920.00  5.9355E+002
 920.50  5.7182E+002
 921.00  5.6018E+002
 921.50  5.5348E+002
 922.00  5.3897E+002
 922.50  5.2636E+002
 923.00  5.1378E+002
 923.50  4.7912E+002
 924.00  4.3920E+002
 924.50  4.2338E+002
 925.00  4.3162E+002
 925.50  4.4262E+002
 926.00  4.6064E+002
 926.50  4.8522E+002
 927.00  4.9602E+002
 927.50  4.9721E+002
 928.00  5.0487E+002
 928.50  5.0779E+002
 929.00  5.1529E+002
 929.50  5.4135E+002
 930.00  5.7206E+002
 930.50  5.9658E+002
 931.00  6.2163E+002
 931.50  6.3584E+002
 932.00  6.2602E+002
 932.50  6.0668E+002
 933.00  5.9806E+002
 933.50  5.8812E+002
 934.00  5.6919E+002
 934.50  5.6544E+002
 935.00  5.8103E+002
 935.50  5.9418E+002
 936.00  5.9760E+002
 936.50  6.0837E+002
 937.00  6.1231E+002
 937.50  5.9075E+002
 938.00  5.6147E+002
 938.50  5.3891E+002
 939.00  5.2915E+002
 939.50  5.1865E+002
 940.00  5.0752E+002
 940.50  5.0091E+002
 941.00  4.9906E+002
 941.50  4.9883E+002
 942.00  5.1680E+002
 942.50  5.5726E+002
 943.00  5.9127E+002
 943.50  6.1032E+002
 944.00  6.1235E+002
 944.50  5.9549E+002
 945.00  5.7283E+002
 945.50  5.5812E+002
 946.00  5.4993E+002
 946.50  5.5020E+002
 947.00  5.5963E+002
 947.50  5.6684E+002
 948.00  5.6311E+002
 948.50  5.5445E+002
 949.00  5.4891E+002
 949.50  5.4118E+002
 950.00  5.2681E+002
 950.50  5.2550E+002
 951.00  5.3675E+002
 951.50  5.4314E+002
 952.00  5.3947E+002
 952.50  5.4866E+002
 953.00  5.6608E+002
 953.50  5.7411E+002
 954.00  5.7274E+002
 954.50  5.7031E+002
 955.00  5.7324E+002
 955.50  5.7982E+002
 956.00  5.9076E+002
 956.50  5.9557E+002
 957.00  6.0016E+002
 957.50  5.8698E+002
 958.00  5.5329E+002
 958.50  5.2642E+002
 959.00  5.2307E+002
 959.50  5.2776E+002
 960.00  5.4014E+002
 960.50  5.5600E+002
 961.00  5.6137E+002
 961.50  5.5120E+002
 962.00  5.4060E+002
 962.50  5.3962E+002
 963.00  5.4343E+002
 963.50  5.4699E+002
 964.00  5.4780E+002
 964.50  5.3896E+002
 965.00  5.2122E+002
 965.50  5.0317E+002
 966.00  4.8977E+002
 966.50  4.8478E+002
 967.00  4.8191E+002
 967.50  4.8040E+002
 968.00  4.8686E+002
 968.50  4.9730E+002
 969.00  5.0958E+002
 969.50  5.3035E+002
 970.00  5.4532E+002
 970.50  5.4620E+002
 971.00  5.5068E+002
 971.50  5.5053E+002
 972.00  5.3395E+002
 972.50  5.2668E+002
 973.00  5.3544E+002
 973.50  5.4281E+002
 974.00  5.4555E+002
 974.50  5.5273E+002
 975.00  5.5684E+002
 975.50  5.4520E+002
 976.00  5.2824E+002
 976.50  5.2343E+002
 977.00  5.2489E+002
 977.50  5.2297E+002
 978.00  5.2143E+002
 978.50  5.1966E+002
 979.00  5.0669E+002
 979.50  4.9235E+002
 980.00  4.8794E+002
 980.50  4.9720E+002
 981.00  5.2393E+002
 981.50  5.6252E+002
 982.00  5.9426E+002
 982.50  6.1039E+002
 983.00  5.9828E+002
 983.50  5.5953E+002
 984.00  5.2372E+002
 984.50  5.1088E+002
 985.00  5.2421E+002
 985.50  5.7160E+002
 986.00  6.3713E+002
 986.50  6.8859E+002
 987.00  7.1255E+002
 987.50  7.0722E+002
 988.00  6.8580E+002
 988.50  6.5961E+002
 989.00  6.3009E+002
 989.50  5.9963E+002
 990.00  5.8315E+002
 990.50  5.7266E+002
 991.00  5.7159E+002
 991.50  5.8274E+002
 992.00  5.8954E+002
 992.50  5.9303E+002
 993.00  5.9460E+002
 993.50  5.7668E+002
 994.00  5.5638E+002
 994.50  5.4522E+002
 995.00  5.2651E+002
 995.50  4.9585E+002
 996.00  4.6984E+002
 996.50  4.6036E+002
 997.00  4.6901E+002
 997.50  4.9521E+002
 998.00  5.2711E+002
 998.50  5.4835E+002
 999.00  5.5219E+002
 999.50  5.5097E+002
1000.00  5.3970E+002
1000.50  5.2055E+002
1001.00  5.1019E+002
1001.50  5.1156E+002
1002.00  5.1391E+002
1002.50  5.2396E+002
1003.00  5.4566E+002
1003.50  5.6607E+002
1004.00  5.8175E+002
1004.50  5.9481E+002
1005.00  6.0499E+002
1005.50  6.1579E+002
1006.00  6.2689E+002
1006.50  6.3133E+002
1007.00  6.2974E+002
1007.50  6.2009E+002
1008.00  6.0896E+002
1008.50  6.0228E+002
1009.00  5.9939E+002
1009.50  5.9243E+002
1010.00  5.8619E+002
1010.50  5.8680E+002
1011.00  5.7920E+002
1011.50  5.6764E+002
1012.00  5.6357E+002
1012.50  5.6126E+002
1013.00  5.4931E+002
1013.50  5.4086E+002
1014.00  5.2915E+002
1014.50  5.2851E+002
1015.00  5.4198E+002
1015.50  5.5014E+002
1016.00  5.5902E+002
1016.50  5.7016E+002
1017.00  5.5567E+002
1017.50  5.2228E+002
1018.00  4.9836E+002
1018.50  4.8272E+002
1019.00  4.6851E+002
1019.50  4.7384E+002
1020.00  4.9126E+002
1020.50  5.1650E+002
1021.00  5.4235E+002
1021.50  5.7110E+002
1022.00  6.0259E+002
1022.50  6.2746E+002
1023.00  6.3297E+002
1023.50  6.2710E+002
1024.00  6.1210E+002
1024.50  5.7964E+002
1025.00  5.4409E+002
1025.50  5.2197E+002
1026.00  5.0944E+002
1026.50  5.0467E+002
1027.00  5.1581E+002
1027.50  5.3060E+002
1028.00  5.3182E+002
1028.50  5.2554E+002
1029.00  5.1780E+002
1029.50  5.1098E+002
1030.00  5.1696E+002
1030.50  5.3737E+002
1031.00  5.5466E+002
1031.50  5.5980E+002
1032.00  5.5709E+002
1032.50  5.4026E+002
1033.00  5.1645E+002
1033.50  5.0259E+002
1034.00  4.9163E+002
1034.50  4.8495E+002
1035.00  4.9347E+002
1035.50  5.0366E+002
1036.00  5.1029E+002
1036.50  5.2899E+002
1037.00  5.3833E+002
1037.50  5.3169E+002
1038.00  5.1880E+002
1038.50  5.0382E+002
1039.00  4.8560E+002
1039.50  4.7681E+002
1040.00  4.8101E+002
1040.50  4.9993E+002
1041.00  5.1775E+002
1041.50  5.1953E+002
1042.00  5.0811E+002
1042.50  5.0091E+002
1043.00  4.9666E+002
1043.50  4.9746E+002
1044.00  5.2180E+002
1044.50  5.5494E+002
1045.00  5.6653E+002
1045.50  5.6887E+002
1046.00  5.6501E+002
1046.50  5.4455E+002
1047.00  5.2507E+002
1047.50  5.2211E+002
1048.00  5.1256E+002
1048.50  4.9199E+002
1049.00  4.6995E+002
1049.50  4.4821E+002
1050.00  4.2959E+002
1050.50  4.2665E+002
1051.00  4.3906E+002
1051.50  4.5561E+002
1052.00  4.6299E+002
1052.50  4.5657E+002
1053.00  4.4595E+002
1053.50  4.3904E+002
1054.00  4.3967E+002
1054.50  4.4665E+002
1055.00  4.5273E+002
1055.50  4.5133E+002
1056.00  4.4441E+002
1056.50  4.3575E+002
1057.00  4.3162E+002
1057.50  4.3507E+002
1058.00  4.4387E+002
1058.50  4.5569E+002
1059.00  4.6127E+002
1059.50  4.5561E+002
1060.00  4.4389E+002
1060.50  4.3730E+002
1061.00  4.3935E+002
1061.50  4.5103E+002
1062.00  4.6713E+002
1062.50  4.8143E+002
1063.00  4.8975E+002
1063.50  4.9215E+002
1064.00  4.9162E+002
1064.50  4.9422E+002
1065.00  4.9515E+002
1065.50  4.8721E+002
1066.00  4.7479E+002
1066.50  4.6939E+002
1067.00  4.6862E+002
1067.50  4.7311E+002
1068.00  4.7714E+002
1068.50  4.7562E+002
1069.00  4.6812E+002
1069.50  4.5872E+002
1070.00  4.5930E+002
1070.50  4.8120E+002
1071.00  5.0200E+002
1071.50  5.2403E+002
1072.00  5.5619E+002
1072.50  5.7219E+002
1073.00  5.6686E+002
1073.50  5.7201E+002
1074.00  5.7239E+002
1074.50  5.6759E+002
1075.00  5.7201E+002
1075.50  5.8184E+002
1076.00  5.9073E+002
1076.50  5.9926E+002
1077.00  5.8727E+002
1077.50  5.7094E+002
1078.00  5.6002E+002
1078.50  5.4385E+002
1079.00  5.2800E+002
1079.50  5.2027E+002
1080.00  5.1716E+002
1080.50  5.1526E+002
1081.00  5.2050E+002
1081.50  5.2743E+002
1082.00  5.2653E+002
1082.50  5.1552E+002
1083.00  5.0430E+002
1083.50  4.9482E+002
1084.00  4.8708E+002
1084.50  4.9262E+002
1085.00  5.1245E+002
1085.50  5.2749E+002
1086.00  5.3452E+002
1086.50  5.4332E+002
1087.00  5.5664E+002
1087.50  5.6846E+002
1088.00  5.8368E+002
1088.50  5.9968E+002
1089.00  6.0122E+002
1089.50  5.8763E+002
1090.00  5.7138E+002
1090.50  5.4840E+002
1091.00  5.2199E+002
1091.50  5.0939E+002
1092.00  5.0183E+002
1092.50  4.8974E+002
1093.00  4.8258E+002
1093.50  4.8241E+002
1094.00  4.8600E+002
1094.50  4.9908E+002
1095.00  5.2297E+002
1095.50  5.5608E+002
1096.00  5.8428E+002
1096.50  5.9517E+002
1097.00  5.9487E+002
1097.50  5.8810E+002
1098.00  5.7724E+002
1098.50  5.6905E+002
1099.00  5.6518E+002
1099.50  5.6133E+002
1100.00  5.5601E+002
1100.50  5.4680E+002
1101.00  5.4326E+002
1101.50  5.4947E+002
1102.00  5.5458E+002
1102.50  5.5014E+002
1103.00  5.4614E+002
1103.50  5.4039E+002
1104.00  5.4076E+002
1104.50  5.5873E+002
1105.00  5.8535E+002
1105.50  5.9841E+002
1106.00  5.9599E+002
1106.50  5.7683E+002
1107.00  5.3922E+002
1107.50  4.9912E+002
1108.00  4.7484E+002
1108.50  4.6609E+002
1109.00  4.7055E+002
1109.50  4.7928E+002
1110.00  4.8433E+002
1110.50  4.8253E+002
1111.00  4.7642E+002
1111.50  4.6463E+002
1112.00  4.5797E+002
1112.50  4.6819E+002
1113.00  4.8636E+002
1113.50  5.0401E+002
1114.00  5.1700E+002
1114.50  5.1983E+002
1115.00  5.0845E+002
1115.50  4.9886E+002
1116.00  4.9724E+002
1116.50  4.9806E+002
1117.00  5.0398E+002
1117.50  5.1769E+002
1118.00  5.1903E+002
1118.50  5.0894E+002
1119.00  5.0562E+002
1119.50  5.0321E+002
1120.00  5.0079E+002
1120.50  4.9801E+002
1121.00  4.9500E+002
1121.50  4.8393E+002
1122.00  4.6246E+002
1122.50  4.4317E+002
1123.00  4.3455E+002
1123.50  4.4015E+002
1124.00  4.5160E+002
1124.50  4.9711E+002
1125.00  5.0720E+002
1125.50  5.0837E+002
